{
  "resourceType": "DiagnosticReport",
  "id": "Report",
  "meta": {
    "profile": [
      "http://hl7.org/fhir/us/breast-radiology/StructureDefinition/BreastRadReport"
    ]
  },
  "contained": [
    {
      "resourceType": "Patient",
      "id": "Patient.Patient1",
      "name": [
        {
          "family": "Moose",
          "given": [
            "Bullwinkle"
          ]
        }
      ]
    },
    {
      "resourceType": "Encounter",
      "id": "Encounter.Encounter1",
      "status": "finished",
      "class": {
        "system": "http://terminology.hl7.org/CodeSystem/v3-ActCode",
        "code": "CASH"
      }
    }
  ],
  "status": "final",
  "category": [
    {
      "coding": [
        {
          "system": "http://terminology.hl7.org/CodeSystem/observation-category",
          "code": "imaging"
        }
      ]
    }
  ],
  "code": {
    "coding": [
      {
        "system": "http://loinc.org",
        "code": "10193-1"
      }
    ]
  },
  "subject": {
    "reference": "#Patient.Patient1"
  },
  "encounter": {
    "reference": "#Encounter.Encounter1"
  },
  "conclusion": "Report Narrative conclusion.",
  "conclusionCode": [
    {
      "coding": [
        {
          "system": "http://hl7.org/fhir/us/breast-radiology/CodeSystem/BiRadsAssessmentCategoriesCS",
          "code": "Category2"
        }
      ],
      "text": "Category 2 (Benign)"
    }
  ]
}